ATF	1.0
7	3     
"AcquisitionMode=Gap Free"
"Comment="
"YTop=10000,1000"
"YBottom=-10000,-1000"
"SweepStartTimesMS=0.000"
"SignalsExported=Im_Scaled,10_mv"
"Signals="	"Im_Scaled"	"10_mv"
"Time (s)"	"Trace #1 (pA)"	"Trace #1 (mV)"
0	2005	19.7754
0.1	2009.89	19.6838
0.2	2006.53	19.6228
0.3	1988.22	19.7144
0.4	1969.91	19.7754
0.5	1965.94	19.7144
0.6	1964.72	19.6838
0.7	1961.36	19.7144
0.8	1973.27	19.7754
0.9	1985.78	19.6838
1	1978.45	19.6838
1.1	1965.33	19.7449
1.2	1968.08	19.7144
1.3	1969.91	19.6533
1.4	1959.23	19.6533
1.5	1948.85	19.6838
1.6	1934.51	19.6228
1.7	1921.08	19.6228
1.8	1912.54	19.6838
1.9	1906.13	19.6838
2	1904.91	19.6533
2.1	1905.52	19.7144
2.2	1907.04	19.7449
2.3	1901.86	19.7754
2.4	1896.67	19.7144
2.5	1897.89	19.8059
2.6	1895.14	19.7754
2.7	1878.36	19.7754
2.8	1866.46	19.6533
2.9	1866.15	19.6838
3	1863.71	19.7144
3.1	1860.66	19.7449
3.2	1856.69	19.6838
3.3	1856.99	19.7144
3.4	1862.18	19.6228
3.5	1866.46	19.6838
3.6	1872.25	19.6533
3.7	1873.78	19.6838
3.8	1874.08	19.6533
3.9	1864.32	19.6533
4	1850.28	19.7144
4.1	1852.42	19.7449
4.2	1853.64	19.8059
4.3	1841.43	19.7449
4.4	1831.36	19.6838
4.5	1829.53	19.6533
4.6	1826.78	19.6838
4.7	1824.34	19.7144
4.8	1823.43	19.7754
4.9	1831.05	19.7754
5	1827.7	19.7754
5.1	1827.7	19.5923
5.2	1844.18	19.6838
5.3	1849.06	19.7754
5.4	1844.79	19.7754
5.5	1841.43	19.5923
5.6	1840.82	19.7144
5.7	1843.87	19.8059
5.8	1831.05	19.7144
5.9	1823.43	19.6228
6	1835.94	19.7144
6.1	1844.79	19.8364
6.2	1833.5	19.7449
6.3	1821.9	19.5923
6.4	1810.61	19.7144
6.5	1807.86	19.8364
6.6	1817.02	19.6533
6.7	1821.59	19.6838
6.8	1820.98	19.7754
6.9	1817.63	19.7754
7	1811.52	19.6838
7.1	1806.03	19.7449
7.2	1802.37	19.7449
7.3	1798.71	19.7754
7.4	1792.6	19.7754
7.5	1787.72	19.6838
7.6	1784.36	19.6228
7.7	1779.17	19.6533
7.8	1783.14	19.8059
7.9	1784.36	19.8059
8	1784.36	19.7144
8.1	1785.28	19.6533
8.2	1777.95	19.7449
8.3	1779.17	19.8364
8.4	1787.11	19.7449
8.5	1799.62	19.6228
8.6	1795.65	19.7449
8.7	1785.89	19.7449
8.8	1785.28	19.6838
8.9	1789.55	19.6838
9	1793.21	19.7144
9.1	1799.01	19.8059
9.2	1806.03	19.7449
9.3	1795.35	19.6533
9.4	1780.4	19.6228
9.5	1772.46	19.7144
9.6	1767.58	19.7754
9.7	1765.75	19.7754
9.8	1765.75	19.7449
9.9	1768.49	19.5923
10	1769.41	19.6533
10.1	1773.68	19.6533
10.2	1779.48	19.7144
10.3	1780.09	14.74
10.4	1723.94	14.7705
10.5	1520.08	14.801
10.6	1412.96	14.679
10.7	1416.93	14.6179
10.8	1422.73	14.7095
10.9	1428.83	14.801
11	1432.8	14.7095
11.1	1433.11	14.6484
11.2	1439.51	14.7095
11.3	1446.84	14.7705
11.4	1451.42	14.7705
11.5	1454.16	14.679
11.6	1455.99	14.6179
11.7	1456.6	14.74
11.8	1456.91	14.801
11.9	1451.11	14.74
12	1450.5	14.5874
12.1	1462.71	14.679
12.2	1477.97	14.801
12.3	1481.63	14.7705
12.4	1480.71	14.7095
12.5	1476.75	14.5874
12.6	1472.78	14.6179
12.7	1469.12	14.7095
12.8	1464.23	14.74
12.9	1466.06	14.7705
13	1471.56	14.74
13.1	1479.8	14.801
13.2	1482.85	14.8315
13.3	1484.07	14.801
13.4	1484.99	14.7705
13.5	1476.75	14.74
13.6	1470.64	14.7705
13.7	1470.34	14.7095
13.8	1466.98	14.6484
13.9	1470.95	14.6484
14	1481.63	14.74
14.1	1492	14.7705
14.2	1492.61	14.7705
14.3	1489.26	14.7705
14.4	1484.38	14.74
14.5	1474.3	14.801
14.6	1466.37	14.7705
14.7	1466.06	14.7705
14.8	1467.29	14.74
14.9	1468.81	14.7705
15	1470.95	14.801
15.1	1473.69	14.7095
15.2	1469.42	14.6484
15.3	1469.12	14.74
15.4	1477.66	14.7705
15.5	1478.27	14.7705
15.6	1478.58	14.7095
15.7	1482.54	14.74
15.8	1485.9	14.74
15.9	1485.6	14.6484
16	1487.43	14.679
16.1	1488.95	14.74
16.2	1484.68	14.7705
16.3	1485.6	14.6484
16.4	1487.73	14.7095
16.5	1486.21	14.7705
16.6	1484.38	14.6179
16.7	1481.02	14.74
16.8	1487.73	14.801
16.9	1491.7	14.6179
17	1486.21	14.6484
17.1	1481.63	14.8315
17.2	1480.1	14.6484
17.3	1481.63	14.6484
17.4	1487.12	14.74
17.5	1486.21	14.7705
17.6	1480.41	14.6484
17.7	1476.14	14.679
17.8	1480.71	14.74
17.9	1491.39	14.7095
18	1495.67	14.74
18.1	1495.67	14.801
18.2	1495.67	14.7705
18.3	1492.31	14.6484
18.4	1489.56	14.6484
18.5	1491.7	14.74
18.6	1497.8	14.74
18.7	1506.04	14.74
18.8	1510.93	14.6484
18.9	1513.37	14.7095
19	1513.06	14.7705
19.1	1506.04	14.6179
19.2	1495.97	14.7095
19.3	1494.14	14.7705
19.4	1495.97	14.7095
19.5	1491.39	14.6179
19.6	1485.29	14.801
19.7	1487.43	14.6484
19.8	1487.43	14.74
19.9	1489.26	14.6179
20	1493.23	14.7095
20.1	1491.39	14.74
20.2	1484.38	9.67407
20.3	1466.98	9.76563
20.4	1300.66	9.64355
20.5	1086.73	9.79614
20.6	1046.75	9.67407
20.7	1056.21	9.73511
20.8	1055.91	9.73511
20.9	1059.27	9.70459
21	1062.01	9.76563
21.1	1069.64	9.64355
21.2	1077.27	9.73511
21.3	1077.27	9.76563
21.4	1079.1	9.64355
21.5	1081.54	9.76563
21.6	1077.27	9.70459
21.7	1071.78	9.76563
21.8	1073.3	9.64355
21.9	1078.49	9.70459
22	1081.54	9.67407
22.1	1081.54	9.76563
22.2	1087.65	9.64355
22.3	1092.22	9.76563
22.4	1090.7	9.67407
22.5	1088.26	9.76563
22.6	1088.26	9.70459
22.7	1090.09	9.73511
22.8	1091	9.70459
22.9	1091.61	9.73511
23	1093.44	9.79614
23.1	1094.67	9.64355
23.2	1091.92	9.79614
23.3	1093.44	9.70459
23.4	1096.5	9.67407
23.5	1096.5	9.73511
23.6	1100.16	9.73511
23.7	1103.82	9.61304
23.8	1104.74	9.67407
23.9	1105.96	9.70459
24	1110.23	9.79614
24.1	1110.53	9.61304
24.2	1110.84	9.73511
24.3	1110.84	9.76563
24.4	1108.4	9.73511
24.5	1109.01	9.64355
24.6	1111.45	9.70459
24.7	1114.81	9.70459
24.8	1114.81	9.64355
24.9	1113.59	9.76563
25	1113.59	9.73511
25.1	1108.09	9.58252
25.2	1107.18	9.76563
25.3	1109.01	9.82666
25.4	1111.45	9.70459
25.5	1109.92	9.61304
25.6	1106.26	9.79614
25.7	1109.92	9.70459
25.8	1110.84	9.70459
25.9	1106.57	9.76563
26	1106.26	9.70459
26.1	1105.65	9.73511
26.2	1105.35	9.79614
26.3	1106.57	9.73511
26.4	1109.62	9.64355
26.5	1112.06	9.70459
26.6	1109.01	9.76563
26.7	1103.82	9.76563
26.8	1109.01	9.73511
26.9	1111.45	9.67407
27	1106.87	9.64355
27.1	1108.4	9.70459
27.2	1112.06	9.73511
27.3	1114.5	9.76563
27.4	1112.37	9.85718
27.5	1108.4	9.70459
27.6	1107.48	9.61304
27.7	1107.18	9.67407
27.8	1106.57	9.76563
27.9	1109.62	9.76563
28	1113.59	9.73511
28.1	1109.01	9.73511
28.2	1102.6	9.61304
28.3	1101.99	9.61304
28.4	1104.74	9.79614
28.5	1107.48	9.79614
28.6	1109.01	9.73511
28.7	1109.62	9.61304
28.8	1113.59	9.64355
28.9	1116.33	9.70459
29	1115.11	9.76563
29.1	1111.15	9.76563
29.2	1112.98	9.61304
29.3	1112.67	9.73511
29.4	1108.4	9.82666
29.5	1111.15	9.67407
29.6	1113.28	9.70459
29.7	1109.31	9.76563
29.8	1105.96	9.67407
29.9	1108.4	9.61304
30	1113.59	4.76074
30.1	1111.15	4.76074
30.2	979.309	4.73022
30.3	718.384	4.66919
30.4	630.798	4.73022
30.5	635.071	4.76074
30.6	633.85	4.73022
30.7	635.681	4.69971
30.8	638.123	4.79126
30.9	637.512	4.82178
31	636.292	4.63867
31.1	635.376	4.76074
31.2	636.597	4.82178
31.3	639.954	4.66919
31.4	643.311	4.69971
31.5	643.616	4.79126
31.6	643.005	4.82178
31.7	643.311	4.66919
31.8	644.226	4.73022
31.9	644.531	4.79126
32	644.836	4.69971
32.1	643.005	4.69971
32.2	641.479	4.79126
32.3	643.005	4.79126
32.4	644.836	4.69971
32.5	645.447	4.73022
32.6	643.616	4.79126
32.7	642.395	4.79126
32.8	642.395	4.69971
32.9	645.142	4.76074
33	647.583	4.69971
33.1	648.499	4.76074
33.2	647.583	4.82178
33.3	647.278	4.63867
33.4	645.142	4.76074
33.5	646.362	4.85229
33.6	646.973	4.69971
33.7	646.362	4.82178
33.8	646.362	4.76074
33.9	648.193	4.66919
34	650.024	4.76074
34.1	651.55	4.79126
34.2	653.381	4.73022
34.3	653.992	4.69971
34.4	652.771	4.76074
34.5	651.855	4.69971
34.6	651.245	4.60815
34.7	650.94	4.73022
34.8	651.855	4.82178
34.9	651.245	4.82178
35	648.499	4.79126
35.1	648.499	4.82178
35.2	650.635	4.73022
35.3	650.33	4.73022
35.4	651.245	4.82178
35.5	650.024	4.69971
35.6	647.583	4.66919
35.7	646.973	4.79126
35.8	648.804	4.82178
35.9	649.109	4.79126
36	650.024	4.79126
36.1	651.55	4.69971
36.2	651.245	4.73022
36.3	650.024	4.73022
36.4	650.33	4.73022
36.5	650.33	4.73022
36.6	650.33	4.76074
36.7	652.161	4.82178
36.8	652.771	4.73022
36.9	653.076	4.66919
37	653.687	4.76074
37.1	653.076	4.79126
37.2	652.466	4.69971
37.3	651.55	4.76074
37.4	651.245	4.79126
37.5	651.55	4.60815
37.6	651.245	4.66919
37.7	653.076	4.85229
37.8	652.771	4.88281
37.9	652.771	4.69971
38	656.128	4.66919
38.1	658.264	4.73022
38.2	657.959	4.76074
38.3	656.128	4.79126
38.4	653.687	4.66919
38.5	653.381	4.82178
38.6	655.518	4.66919
38.7	656.433	4.76074
38.8	655.823	4.76074
38.9	652.771	4.73022
39	652.771	4.82178
39.1	654.602	4.63867
39.2	654.907	4.73022
39.3	654.907	4.66919
39.4	654.297	4.82178
39.5	654.602	4.66919
39.6	654.907	4.76074
39.7	654.907	4.73022
39.8	654.602	4.66919
39.9	654.907	4.82178
40	655.212	4.73022
40.1	655.823	4.82178
40.2	650.94	-0.305176
40.3	527.954	-0.213623
40.4	245.972	-0.274658
40.5	133.362	-0.305176
40.6	135.803	-0.152588
40.7	134.888	-0.244141
40.8	134.583	-0.366211
40.9	134.277	-0.274658
41	134.888	-0.244141
41.1	134.583	-0.305176
41.2	134.583	-0.213623
41.3	134.277	-0.213623
41.4	134.277	-0.305176
41.5	134.277	-0.213623
41.6	133.972	-0.274658
41.7	133.972	-0.335693
41.8	134.277	-0.183105
41.9	134.583	-0.183105
42	134.583	-0.274658
42.1	134.277	-0.335693
42.2	134.888	-0.244141
42.3	134.888	-0.183105
42.4	135.193	-0.305176
42.5	134.888	-0.305176
42.6	134.583	-0.213623
42.7	134.888	-0.213623
42.8	135.193	-0.244141
42.9	134.888	-0.213623
43	134.888	-0.305176
43.1	134.277	-0.274658
43.2	133.057	-0.213623
43.3	133.667	-0.244141
43.4	134.277	-0.396729
43.5	134.888	-0.244141
43.6	134.888	-0.152588
43.7	134.888	-0.305176
43.8	135.193	-0.305176
43.9	134.583	-0.274658
44	134.888	-0.183105
44.1	134.888	-0.305176
44.2	135.193	-0.213623
44.3	135.498	-0.183105
44.4	135.193	-0.335693
44.5	134.888	-0.213623
44.6	134.888	-0.305176
44.7	134.583	-0.274658
44.8	134.583	-0.152588
44.9	135.193	-0.305176
45	135.498	-0.213623
45.1	134.888	-0.274658
45.2	134.583	-0.335693
45.3	135.498	-0.213623
45.4	135.803	-0.366211
45.5	135.193	-0.213623
45.6	135.803	-0.213623
45.7	135.498	-0.305176
45.8	135.193	-0.244141
45.9	135.193	-0.244141
46	134.888	-0.366211
46.1	134.888	-0.213623
46.2	135.193	-0.152588
46.3	135.498	-0.335693
46.4	135.193	-0.244141
46.5	135.498	-0.183105
46.6	135.803	-0.366211
46.7	135.193	-0.305176
46.8	135.498	-0.183105
46.9	135.803	-0.305176
47	135.193	-0.183105
47.1	136.108	-0.244141
47.2	135.803	-0.244141
47.3	135.803	-0.244141
47.4	135.803	-0.274658
47.5	135.803	-0.213623
47.6	135.803	-0.274658
47.7	134.583	-0.244141
47.8	134.888	-0.244141
47.9	135.803	-0.305176
48	136.108	-0.213623
48.1	135.803	-0.305176
48.2	135.498	-0.213623
48.3	135.193	-0.305176
48.4	134.888	-0.274658
48.5	135.193	-0.183105
48.6	135.803	-0.274658
48.7	135.498	-0.305176
48.8	135.803	-0.213623
48.9	135.193	-0.335693
49	135.193	-0.274658
49.1	135.193	-0.152588
49.2	135.498	-0.183105
49.3	135.193	-0.274658
49.4	134.888	-0.213623
49.5	134.583	-0.244141
49.6	134.583	-0.366211
49.7	134.888	-0.244141
49.8	134.888	-0.152588
49.9	135.193	-0.274658
50	134.277	-0.305176
50.1	135.193	-0.244141
50.2	134.583	-5.18799
50.3	38.7573	-5.31006
50.4	-245.972	-5.18799
50.5	-387.268	-5.18799
50.6	-391.235	-5.24902
50.7	-392.761	-5.18799
50.8	-392.761	-5.21851
50.9	-393.677	-5.21851
51	-393.677	-5.24902
51.1	-392.761	-5.27954
51.2	-393.066	-5.15747
51.3	-392.456	-5.21851
51.4	-391.235	-5.31006
51.5	-391.235	-5.18799
51.6	-391.846	-5.18799
51.7	-391.846	-5.34058
51.8	-390.93	-5.27954
51.9	-390.625	-5.15747
52	-391.541	-5.21851
52.1	-392.456	-5.24902
52.2	-393.066	-5.15747
52.3	-393.982	-5.34058
52.4	-394.287	-5.21851
52.5	-393.677	-5.21851
52.6	-393.982	-5.27954
52.7	-393.982	-5.12695
52.8	-393.982	-5.31006
52.9	-394.287	-5.21851
53	-392.151	-5.21851
53.1	-392.456	-5.27954
53.2	-393.677	-5.12695
53.3	-393.372	-5.31006
53.4	-393.372	-5.12695
53.5	-392.761	-5.31006
53.6	-392.761	-5.18799
53.7	-392.151	-5.31006
53.8	-391.235	-5.15747
53.9	-391.541	-5.27954
54	-391.541	-5.18799
54.1	-391.541	-5.31006
54.2	-392.456	-5.18799
54.3	-393.066	-5.34058
54.4	-393.066	-5.15747
54.5	-392.761	-5.27954
54.6	-392.456	-5.12695
54.7	-392.456	-5.24902
54.8	-391.846	-5.18799
54.9	-392.151	-5.24902
55	-391.541	-5.27954
55.1	-392.151	-5.18799
55.2	-393.677	-5.31006
55.3	-393.372	-5.12695
55.4	-391.846	-5.27954
55.5	-392.761	-5.18799
55.6	-393.982	-5.21851
55.7	-393.982	-5.34058
55.8	-393.372	-5.15747
55.9	-393.372	-5.27954
56	-393.677	-5.21851
56.1	-393.677	-5.18799
56.2	-392.151	-5.24902
56.3	-392.151	-5.18799
56.4	-392.151	-5.34058
56.5	-391.541	-5.18799
56.6	-390.625	-5.27954
56.7	-391.235	-5.15747
56.8	-393.066	-5.31006
56.9	-393.982	-5.15747
57	-393.372	-5.24902
57.1	-393.677	-5.24902
57.2	-391.846	-5.31006
57.3	-392.151	-5.21851
57.4	-392.761	-5.21851
57.5	-393.066	-5.27954
57.6	-392.761	-5.12695
57.7	-392.456	-5.31006
57.8	-392.761	-5.24902
57.9	-393.677	-5.18799
58	-393.372	-5.31006
58.1	-392.761	-5.24902
58.2	-392.761	-5.15747
58.3	-392.151	-5.24902
58.4	-392.151	-5.27954
58.5	-393.372	-5.12695
58.6	-393.372	-5.24902
58.7	-391.846	-5.31006
58.8	-391.235	-5.18799
58.9	-390.93	-5.21851
59	-391.846	-5.31006
59.1	-392.456	-5.18799
59.2	-393.066	-5.27954
59.3	-393.372	-5.24902
59.4	-394.287	-5.15747
59.5	-393.372	-5.24902
59.6	-392.456	-5.21851
59.7	-393.982	-5.21851
59.8	-394.592	-5.24902
59.9	-393.677	-5.18799
60	-393.372	-5.27954
60.1	-393.066	-5.15747
60.2	-392.761	-5.27954
60.3	-392.761	-10.1013
60.4	-455.933	-10.2234
60.5	-728.149	-10.1929
60.6	-905.762	-10.1929
60.7	-916.443	-10.2539
60.8	-913.391	-10.1929
60.9	-913.696	-10.2844
61	-915.527	-10.2234
61.1	-915.833	-10.1318
61.2	-911.56	-10.2539
61.3	-910.95	-10.1318
61.4	-915.222	-10.2539
61.5	-916.748	-10.1318
61.6	-914.917	-10.3149
61.7	-914.612	-10.1929
61.8	-915.833	-10.3455
61.9	-917.358	-10.1624
62	-917.053	-10.2539
62.1	-914.917	-10.1318
62.2	-913.696	-10.2539
62.3	-914.307	-10.1318
62.4	-916.138	-10.2234
62.5	-917.664	-10.1929
62.6	-914.001	-10.2844
62.7	-910.339	-10.1929
62.8	-910.339	-10.2844
62.9	-914.001	-10.1013
63	-915.527	-10.2844
63.1	-914.917	-10.1318
63.2	-913.391	-10.1318
63.3	-914.001	-10.2844
63.4	-915.222	-10.1318
63.5	-913.696	-10.1624
63.6	-911.255	-10.2844
63.7	-912.781	-10.2539
63.8	-914.917	-10.1318
63.9	-915.833	-10.1624
64	-916.443	-10.2539
64.1	-915.222	-10.2234
64.2	-916.138	-10.1013
64.3	-917.358	-10.1929
64.4	-919.189	-10.3149
64.5	-919.8	-10.2234
64.6	-919.495	-10.1318
64.7	-919.495	-10.1624
64.8	-920.41	-10.1624
64.9	-921.326	-10.2539
65	-920.715	-10.1624
65.1	-919.495	-10.2539
65.2	-920.715	-10.1624
65.3	-921.631	-10.2844
65.4	-917.969	-10.1624
65.5	-914.612	-10.2539
65.6	-911.865	-10.1318
65.7	-914.001	-10.1929
65.8	-917.053	-10.1318
65.9	-917.664	-10.1318
66	-917.664	-10.2844
66.1	-915.833	-10.1624
66.2	-914.307	-10.3149
66.3	-916.138	-10.1013
66.4	-917.969	-10.2234
66.5	-917.053	-10.1929
66.6	-917.969	-10.1624
66.7	-918.274	-10.1929
66.8	-919.189	-10.1318
66.9	-919.495	-10.2844
67	-918.274	-10.1624
67.1	-917.664	-10.3149
67.2	-919.495	-10.1318
67.3	-920.105	-10.2234
67.4	-920.105	-10.1013
67.5	-919.189	-10.1624
67.6	-920.105	-10.2844
67.7	-919.189	-10.1624
67.8	-917.969	-10.2844
67.9	-917.969	-10.1929
68	-917.664	-10.2539
68.1	-918.884	-10.1624
68.2	-920.41	-10.2539
68.3	-920.715	-10.1013
68.4	-922.852	-10.2539
68.5	-921.326	-10.1624
68.6	-918.274	-10.2844
68.7	-916.138	-10.1624
68.8	-916.443	-10.2539
68.9	-920.105	-10.1624
69	-919.189	-10.1929
69.1	-918.579	-10.1318
69.2	-918.884	-10.1929
69.3	-921.326	-10.1624
69.4	-921.936	-10.1318
69.5	-919.189	-10.3149
69.6	-916.748	-10.1929
69.7	-917.969	-10.2844
69.8	-917.969	-10.2234
69.9	-917.053	-10.1318
70	-916.748	-10.2234
70.1	-917.053	-10.1929
70.2	-915.222	-15.1367
70.3	-923.462	-15.2283
70.4	-1085.21	-15.2588
70.5	-1360.47	-15.1978
70.6	-1443.18	-15.2893
70.7	-1436.46	-15.1367
70.8	-1432.19	-15.2283
70.9	-1431.88	-15.1062
71	-1431.88	-15.1978
71.1	-1433.72	-15.1978
71.2	-1434.63	-15.1672
71.3	-1437.68	-15.2893
71.4	-1438.6	-15.1672
71.5	-1436.16	-15.1978
71.6	-1432.19	-15.1672
71.7	-1430.36	-15.1367
71.8	-1431.88	-15.2283
71.9	-1434.94	-15.1672
72	-1435.55	-15.2588
72.1	-1434.02	-15.1978
72.2	-1431.58	-15.3198
72.3	-1432.19	-15.1672
72.4	-1430.97	-15.2588
72.5	-1429.44	-15.1062
72.6	-1430.97	-15.1367
72.7	-1431.58	-15.2283
72.8	-1432.19	-15.1367
72.9	-1431.58	-15.2893
73	-1429.75	-15.1367
73.1	-1429.75	-15.2893
73.2	-1430.05	-15.1062
73.3	-1428.22	-15.2588
73.4	-1426.7	-15.1062
73.5	-1427.92	-15.2588
73.6	-1430.36	-15.1672
73.7	-1429.44	-15.2893
73.8	-1426.7	-15.1672
73.9	-1426.7	-15.2588
74	-1428.22	-15.1367
74.1	-1429.14	-15.2283
74.2	-1427.92	-15.1062
74.3	-1427.31	-15.1978
74.4	-1433.72	-15.2283
74.5	-1435.24	-15.1672
74.6	-1432.8	-15.2588
74.7	-1434.63	-15.2283
74.8	-1431.27	-15.1062
74.9	-1430.66	-15.2283
75	-1436.16	-15.1672
75.1	-1438.29	-15.2283
75.2	-1437.99	-15.1978
75.3	-1437.68	-15.1367
75.4	-1438.9	-15.2588
75.5	-1440.73	-15.1367
75.6	-1438.9	-15.2588
75.7	-1437.07	-15.1062
75.8	-1434.94	-15.2283
75.9	-1436.16	-15.1672
76	-1433.72	-15.2283
76.1	-1432.19	-15.2588
76.2	-1434.63	-15.1672
76.3	-1436.46	-15.2588
76.4	-1439.51	-15.1367
76.5	-1437.99	-15.1672
76.6	-1434.94	-15.2588
76.7	-1434.63	-15.1367
76.8	-1434.94	-15.1672
76.9	-1434.33	-15.2588
77	-1434.63	-15.1978
77.1	-1430.97	-15.1062
77.2	-1434.63	-15.2588
77.3	-1439.21	-15.1978
77.4	-1433.72	-15.1672
77.5	-1434.33	-15.2893
77.6	-1438.6	-15.2283
77.7	-1435.85	-15.1672
77.8	-1436.46	-15.1367
77.9	-1436.16	-15.1978
78	-1433.72	-15.1367
78.1	-1435.85	-15.2588
78.2	-1436.16	-15.2283
78.3	-1432.5	-15.1672
78.4	-1434.94	-15.3198
78.5	-1436.77	-15.1367
78.6	-1434.94	-15.2588
78.7	-1430.66	-15.1062
78.8	-1428.53	-15.2588
78.9	-1427.92	-15.1367
79	-1427.92	-15.2588
79.1	-1430.97	-15.1672
79.2	-1430.97	-15.3198
79.3	-1434.02	-15.1367
79.4	-1431.88	-15.2588
79.5	-1428.53	-15.1062
79.6	-1430.05	-15.2283
79.7	-1428.53	-15.1062
79.8	-1428.22	-15.2893
79.9	-1430.36	-15.1672
80	-1427	-15.2893
80.1	-1421.81	-15.1367
80.2	-1421.51	-15.2588
80.3	-1422.12	-20.2026
80.4	-1497.5	-20.1416
80.5	-1763.92	-20.2332
80.6	-1912.54	-20.1416
80.7	-1914.67	-20.2026
80.8	-1909.79	-20.2942
80.9	-1914.06	-20.1721
81	-1922.3	-20.2332
81.1	-1924.44	-20.1111
81.2	-1922	-20.2942
81.3	-1919.56	-20.1721
81.4	-1924.13	-20.1721
81.5	-1927.8	-20.2637
81.6	-1928.1	-20.1416
81.7	-1925.35	-20.2637
81.8	-1927.8	-20.0806
81.9	-1932.37	-20.2637
82	-1931.46	-20.1111
82.1	-1929.63	-20.2942
82.2	-1930.54	-20.2637
82.3	-1926.57	-20.2026
82.4	-1922.61	-20.2026
82.5	-1920.47	-20.2026
82.6	-1921.08	-20.1416
82.7	-1918.95	-20.2942
82.8	-1915.59	-20.1416
82.9	-1915.89	-20.2637
83	-1915.28	-20.2026
83.1	-1911.01	-20.1111
83.2	-1920.78	-20.2332
83.3	-1922	-20.1111
83.4	-1911.62	-20.2026
83.5	-1914.06	-20.1721
83.6	-1917.72	-20.1416
83.7	-1912.23	-20.2637
83.8	-1914.06	-20.2026
83.9	-1917.72	-20.1416
84	-1919.25	-20.2332
84.1	-1921.69	-20.1111
84.2	-1920.47	-20.2637
84.3	-1922.3	-20.1416
84.4	-1921.69	-20.3247
84.5	-1921.69	-20.2026
84.6	-1920.78	-20.2026
84.7	-1918.95	-20.2026
84.8	-1922.3	-20.1416
84.9	-1925.96	-20.2026
85	-1929.32	-20.2637
85.1	-1928.71	-20.1721
85.2	-1922.3	-20.2637
85.3	-1920.17	-20.1416
85.4	-1919.25	-20.1416
85.5	-1919.56	-20.2332
85.6	-1918.33	-20.1721
85.7	-1918.64	-20.1416
85.8	-1917.42	-20.2332
85.9	-1920.78	-20.1416
86	-1926.57	-20.2637
86.1	-1925.96	-20.1416
86.2	-1922.3	-20.2942
86.3	-1926.27	-20.1111
86.4	-1930.24	-20.2332
86.5	-1925.66	-20.1721
86.6	-1918.33	-20.2637
86.7	-1917.42	-20.2332
86.8	-1918.03	-20.1721
86.9	-1917.11	-20.2332
87	-1919.25	-20.1111
87.1	-1922.3	-20.2332
87.2	-1921.39	-20.2637
87.3	-1923.52	-20.1416
87.4	-1917.72	-20.2026
87.5	-1913.15	-20.2637
87.6	-1914.98	-20.1721
87.7	-1915.89	-20.2026
87.8	-1920.47	-20.1416
87.9	-1922	-20.2026
88	-1922.3	-20.2637
88.1	-1921.69	-20.1416
88.2	-1919.56	-20.2026
88.3	-1919.86	-20.2637
88.4	-1922.3	-20.1416
88.5	-1915.89	-20.1111
88.6	-1913.76	-20.2637
88.7	-1920.78	-20.1721
88.8	-1921.39	-20.2637
88.9	-1921.39	-20.2026
89	-1927.19	-20.1721
89.1	-1928.41	-20.2332
89.2	-1922.91	-20.2026
89.3	-1922	-20.1721
89.4	-1927.49	-20.2637
89.5	-1929.02	-20.2332
89.6	-1930.24	-20.1416
89.7	-1937.56	-20.3247
89.8	-1937.26	-20.1721
89.9	-1930.54	-20.1721
90	-1930.85	-20.1416
90.1	-1933.9	-20.1416
90.2	-1930.54	-25.238
90.3	-1936.95	-25.1465
90.4	-2108.76	-25.2686
90.5	-2363.28	-25.177
90.6	-2431.03	-25.2991
90.7	-2420.96	-25.2075
90.8	-2416.38	-25.177
90.9	-2419.13	-25.2075
91	-2418.52	-25.2075
91.1	-2413.64	-25.2075
91.2	-2416.08	-25.2075
91.3	-2420.96	-25.2686
91.4	-2422.49	-25.177
91.5	-2425.54	-25.3296
91.6	-2429.5	-25.1465
91.7	-2424.01	-25.2991
91.8	-2416.99	-25.116
91.9	-2413.02	-25.238
92	-2413.02	-25.1465
92.1	-2419.13	-25.238
92.2	-2419.74	-25.1465
92.3	-2415.77	-25.2075
92.4	-2416.08	-25.2991
92.5	-2418.82	-25.1465
92.6	-2417.91	-25.2686
92.7	-2414.86	-25.177
92.8	-2409.97	-25.116
92.9	-2405.7	-25.2991
93	-2411.8	-25.0854
93.1	-2422.79	-25.177
93.2	-2428.59	-25.3296
93.3	-2431.64	-25.177
93.4	-2429.2	-25.2991
93.5	-2420.65	-25.1465
93.6	-2418.82	-25.2686
93.7	-2411.19	-25.0854
93.8	-2409.97	-25.2686
93.9	-2413.64	-25.116
94	-2416.99	-25.2686
94.1	-2418.82	-25.1465
94.2	-2420.65	-25.2686
94.3	-2420.96	-25.238
94.4	-2422.79	-25.2075
94.5	-2423.1	-25.238
94.6	-2421.57	-25.1465
94.7	-2427.06	-25.1465
94.8	-2426.45	-25.2075
94.9	-2428.89	-25.1465
95	-2436.22	-25.2686
95.1	-2437.74	-25.1465
95.2	-2430.73	-25.177
95.3	-2427.98	-25.2686
95.4	-2427.98	-25.1465
95.5	-2421.57	-25.177
95.6	-2417.3	-25.2686
95.7	-2414.55	-25.1465
95.8	-2411.19	-25.1465
95.9	-2406.92	-25.2991
96	-2406.92	-25.116
96.1	-2406.31	-25.2686
96.2	-2399.6	-25.177
96.3	-2402.65	-25.177
96.4	-2414.25	-25.238
96.5	-2414.55	-25.2686
96.6	-2417.6	-25.116
96.7	-2433.17	-25.177
96.8	-2428.28	-25.2075
96.9	-2425.84	-25.116
97	-2426.76	-25.2075
97.1	-2416.69	-25.2686
97.2	-2410.58	-25.177
97.3	-2416.99	-25.2991
97.4	-2427.37	-25.177
97.5	-2435	-25.2075
97.6	-2436.22	-25.238
97.7	-2424.93	-25.238
97.8	-2421.57	-25.116
97.9	-2427.06	-25.1465
98	-2437.74	-25.2075
98.1	-2441.1	-25.2991
98.2	-2444.15	-25.2991
98.3	-2445.68	-25.177
98.4	-2444.76	-25.1465
98.5	-2449.95	-25.2075
98.6	-2447.81	-25.2686
98.7	-2448.43	-25.116
98.8	-2449.34	-25.177
98.9	-2442.32	-25.2991
99	-2431.03	-25.177
99.1	-2431.95	-25.2075
99.2	-2441.41	-25.2686
99.3	-2441.41	-25.238
99.4	-2434.69	-25.1465
99.5	-2433.17	-25.0854
99.6	-2424.93	-25.177
99.7	-2422.18	-25.2686
99.8	-2430.73	-25.116
99.9	-2433.78	-25.2686
100	-2429.2	-25.238
100.1	-2428.59	-25.1465
100.2	-2428.59	-30.1208
100.3	-2465.82	-30.2124
100.4	-2703.86	-30.0903
100.5	-2878.72	-30.1208
100.6	-2891.24	-30.2124
100.7	-2894.9	-30.2124
100.8	-2909.85	-30.1208
100.9	-2912.29	-30.1514
101	-2895.2	-30.1514
101.1	-2876.89	-30.2124
101.2	-2879.94	-30.0903
101.3	-2878.42	-30.0903
101.4	-2882.39	-30.1819
101.5	-2890.63	-30.2734
101.6	-2890.93	-30.304
101.7	-2891.24	-30.2124
101.8	-2895.81	-30.0903
101.9	-2897.64	-30.1514
102	-2901.31	-30.1819
102.1	-2897.34	-30.1514
102.2	-2898.56	-30.1208
102.3	-2905.58	-30.2429
102.4	-2910.46	-30.2124
102.5	-2909.24	-30.1514
102.6	-2911.99	-30.2734
102.7	-2912.9	-30.1208
102.8	-2901.31	-30.1514
102.9	-2892.76	-30.1208
103	-2894.9	-30.1514
103.1	-2893.37	-30.1208
103.2	-2897.03	-30.1514
103.3	-2902.22	-30.1819
103.4	-2895.81	-30.2734
103.5	-2896.42	-30.1514
103.6	-2897.03	-30.2124
103.7	-2890.93	-30.0903
103.8	-2897.64	-30.2124
103.9	-2901.31	-30.1208
104	-2903.14	-30.0903
104.1	-2902.22	-30.2124
104.2	-2894.29	-30.1208
104.3	-2892.76	-30.2734
104.4	-2904.97	-30.1819
104.5	-2908.33	-30.1514
104.6	-2902.53	-30.1514
104.7	-2903.75	-30.0903
104.8	-2917.18	-30.2124
104.9	-2915.65	-30.0598
105	-2903.44	-30.2429
105.1	-2900.39	-30.0903
105.2	-2901	-30.2429
105.3	-2900.7	-30.1208
105.4	-2909.55	-30.2734
105.5	-2907.1	-30.0903
105.6	-2897.95	-30.1819
105.7	-2900.09	-30.0598
105.8	-2902.83	-30.2429
105.9	-2892.46	-30.1208
106	-2888.18	-30.1208
106.1	-2900.09	-30.2429
106.2	-2903.44	-30.1514
106.3	-2901.61	-30.1819
106.4	-2891.54	-30.1208
106.5	-2884.22	-30.1819
106.6	-2889.1	-30.0903
106.7	-2896.73	-30.1514
106.8	-2898.86	-30.1208
106.9	-2890.32	-30.1514
107	-2883	-30.2429
107.1	-2875.37	-30.1514
107.2	-2883.3	-30.1819
107.3	-2894.59	-30.2124
107.4	-2894.29	-30.1208
107.5	-2894.59	-30.2124
107.6	-2894.9	-30.0903
107.7	-2884.22	-30.1208
107.8	-2870.48	-30.2429
107.9	-2873.23	-30.1208
108	-2884.22	-30.2429
108.1	-2890.32	-30.2124
108.2	-2885.74	-30.0903
108.3	-2873.84	-30.2429
108.4	-2876.89	-30.1208
108.5	-2892.76	-30.1208
108.6	-2908.33	-30.2429
108.7	-2907.71	-30.1208
108.8	-2897.34	-30.2734
108.9	-2889.4	-30.1819
109	-2889.4	-30.2429
109.1	-2880.86	-30.1208
109.2	-2862.24	-30.1819
109.3	-2867.43	-30.0598
109.4	-2885.44	-30.1514
109.5	-2892.76	-30.2124
109.6	-2901.31	-30.0903
109.7	-2900.39	-30.2124
109.8	-2900.09	-30.2124
109.9	-2906.19	-30.1208
110	-2908.63	-30.2734
110.1	-2900.09	-35.1257
110.2	-2943.12	-35.1257
110.3	-3176.57	-35.2173
110.4	-3345.03	-35.0647
110.5	-3341.98	-35.1257
110.6	-3338.93	-35.2173
110.7	-3343.2	-35.0952
110.8	-3330.38	-35.2478
110.9	-3316.65	-35.2173
111	-3323.97	-35.1257
111.1	-3330.38	-35.1563
111.2	-3320.31	-35.2173
111.3	-3311.77	-35.0952
111.4	-3327.03	-35.2173
111.5	-3350.52	-35.1257
111.6	-3365.48	-35.2173
111.7	-3354.8	-35.1563
111.8	-3339.84	-35.2478
111.9	-3336.18	-35.1257
112	-3338.01	-35.2478
112.1	-3339.84	-35.0952
112.2	-3343.2	-35.1257
112.3	-3350.83	-35.1563
112.4	-3341.98	-35.0952
112.5	-3320.31	-35.2478
112.6	-3323.06	-35.1563
112.7	-3327.94	-35.1257
112.8	-3324.89	-35.1868
112.9	-3323.67	-35.2478
113	-3320.92	-35.0952
113.1	-3322.45	-35.1257
113.2	-3332.21	-35.1868
113.3	-3345.95	-35.0647
113.4	-3342.59	-35.1868
113.5	-3334.96	-35.0952
113.6	-3329.16	-35.2783
113.7	-3327.33	-35.1563
113.8	-3328.55	-35.1868
113.9	-3317.57	-35.2173
114	-3300.17	-35.0952
114.1	-3292.85	-35.2173
114.2	-3296.81	-35.0952
114.3	-3305.97	-35.2173
114.4	-3297.73	-35.0647
114.5	-3303.53	-35.1868
114.6	-3320.31	-35.1257
114.7	-3315.12	-35.0952
114.8	-3312.68	-35.2783
114.9	-3312.07	-35.2478
115	-3320.31	-35.1257
115.1	-3319.09	-35.0647
115.2	-3301.39	-35.2173
115.3	-3298.65	-35.0647
115.4	-3302.31	-35.1868
115.5	-3302	-35.0952
115.6	-3305.36	-35.1868
115.7	-3318.79	-35.1563
115.8	-3324.28	-35.1868
115.9	-3316.04	-35.2478
116	-3299.87	-35.0952
116.1	-3286.44	-35.2173
116.2	-3274.84	-35.0952
116.3	-3264.47	-35.2173
116.4	-3273.93	-35.0647
116.5	-3295.29	-35.1868
116.6	-3300.48	-35.1868
116.7	-3303.53	-35.1257
116.8	-3299.26	-35.2173
116.9	-3289.18	-35.1563
117	-3276.67	-35.2173
117.1	-3257.75	-35.2478
117.2	-3253.48	-35.0952
117.3	-3274.23	-35.2478
117.4	-3299.26	-35.0952
117.5	-3314.21	-35.1563
117.6	-3307.5	-35.1868
117.7	-3284.61	-35.0952
117.8	-3277.59	-35.1563
117.9	-3273.32	-35.2478
118	-3273.62	-35.1563
118.1	-3279.11	-35.1257
118.2	-3280.33	-35.2478
118.3	-3277.28	-35.1563
118.4	-3276.37	-35.1868
118.5	-3280.94	-35.2783
118.6	-3284	-35.1868
118.7	-3282.78	-35.1257
118.8	-3288.27	-35.1868
118.9	-3303.53	-35.2173
119	-3296.81	-35.1257
119.1	-3278.2	-35.0952
119.2	-3267.21	-35.2478
119.3	-3273.01	-35.1257
119.4	-3274.84	-35.1257
119.5	-3286.74	-35.2478
119.6	-3303.22	-35.1257
119.7	-3313.29	-35.0952
119.8	-3315.73	-35.2173
119.9	-3312.99	-35.1868
120	-3299.26	-35.1257
120.1	-3289.79	-35.1563
120.2	-3295.9	-40.2832
120.3	-3306.27	-40.1306
120.4	-3475.65	-40.1611
120.5	-3686.83	-40.2222
120.6	-3729.86	-40.0696
120.7	-3728.94	-40.2222
120.8	-3728.03	-40.1001
120.9	-3727.11	-40.1917
121	-3727.72	-40.1306
121.1	-3734.44	-40.1001
121.2	-3739.93	-40.2222
121.3	-3731.38	-40.1001
121.4	-3714.9	-40.2527
121.5	-3707.89	-40.1611
121.6	-3697.81	-40.2832
121.7	-3693.24	-40.1917
121.8	-3705.75	-40.1611
121.9	-3709.41	-40.2222
122	-3702.7	-40.1611
122.1	-3682.25	-40.1917
122.2	-3668.82	-40.1306
122.3	-3665.47	-40.1917
122.4	-3665.47	-40.1306
122.5	-3663.94	-40.2222
122.6	-3654.79	-40.0696
122.7	-3658.14	-40.1611
122.8	-3665.47	-40.1306
122.9	-3666.38	-40.1611
123	-3662.11	-40.1306
123.1	-3672.49	-40.1306
123.2	-3676.15	-40.2222
123.3	-3672.18	-40.1001
123.4	-3673.4	-40.1917
123.5	-3676.76	-40.2832
123.6	-3674.93	-40.1306
123.7	-3683.17	-40.1001
123.8	-3694.15	-40.2527
123.9	-3699.04	-40.1001
124	-3678.89	-40.2222
124.1	-3663.02	-40.2527
124.2	-3673.4	-40.1611
124.3	-3680.42	-40.2832
124.4	-3675.23	-40.1917
124.5	-3651.43	-40.1306
124.6	-3627.93	-40.1611
124.7	-3618.77	-40.2832
124.8	-3615.72	-40.1611
124.9	-3630.37	-40.1611
125	-3654.48	-40.2832
125.1	-3668.82	-40.1306
125.2	-3660.89	-40.2222
125.3	-3660.89	-40.2222
125.4	-3665.16	-40.1611
125.5	-3638.92	-40.2832
125.6	-3625.79	-40.1001
125.7	-3643.19	-40.2222
125.8	-3654.17	-40.2527
125.9	-3649.9	-40.1001
126	-3646.24	-40.1917
126.1	-3645.02	-40.1917
126.2	-3633.12	-40.1001
126.3	-3605.35	-40.2222
126.4	-3593.75	-40.1917
126.5	-3600.77	-40.1611
126.6	-3621.52	-40.2222
126.7	-3649.6	-40.1306
126.8	-3665.16	-40.1611
126.9	-3681.34	-40.1306
127	-3677.37	-40.1001
127.1	-3665.47	-40.1611
127.2	-3660.58	-40.2527
127.3	-3664.55	-40.1306
127.4	-3670.35	-40.0696
127.5	-3675.54	-40.1001
127.6	-3676.45	-40.2222
127.7	-3665.16	-40.1611
127.8	-3657.53	-40.0696
127.9	-3632.81	-40.1306
128	-3620.91	-40.1611
128.1	-3641.66	-40.2527
128.2	-3649.9	-40.2222
128.3	-3657.23	-40.1001
128.4	-3652.34	-40.1306
128.5	-3644.41	-40.2222
128.6	-3635.25	-40.1001
128.7	-3615.42	-40.1306
128.8	-3599.55	-40.2222
128.9	-3624.57	-40.1001
129	-3660.58	-40.1611
129.1	-3672.18	-40.2222
129.2	-3676.76	-40.1001
129.3	-3679.5	-40.1917
129.4	-3664.25	-40.2222
129.5	-3654.48	-40.0696
129.6	-3653.56	-40.1917
129.7	-3659.67	-40.1917
129.8	-3669.13	-40.1306
129.9	-3671.57	-40.2222
130	-3658.45	-40.1001
130.1	-3630.37	-45.2271
130.2	-3654.79	-45.0745
130.3	-3847.35	-45.2271
130.4	-4031.07	-45.0439
130.5	-4048.46	-45.166
130.6	-4014.89	-45.1355
130.7	-4003.91	-45.0745
130.8	-4039.92	-45.166
130.9	-4056.7	-45.0745
131	-4042.97	-45.1355
131.1	-4048.16	-45.105
131.2	-4061.58	-45.105
131.3	-4028.32	-45.1965
131.4	-3986.82	-45.0745
131.5	-3973.39	-45.105
131.6	-3992.61	-45.166
131.7	-4006.65	-45.0745
131.8	-3988.34	-45.0745
131.9	-3977.36	-45.1965
132	-3966.37	-45.105
132.1	-3955.08	-45.0745
132.2	-3956.6	-45.1965
132.3	-3954.77	-45.0745
132.4	-3966.67	-45.105
132.5	-3992.31	-45.2271
132.6	-3971.56	-45.0439
132.7	-3941.65	-45.2271
132.8	-3939.82	-45.0439
132.9	-3940.73	-45.1355
133	-3939.82	-45.1965
133.1	-3953.25	-45.1355
133.2	-3959.05	-45.0745
133.3	-3963.32	-45.0745
133.4	-3967.59	-45.105
133.5	-3955.99	-45.2271
133.6	-3936.46	-45.1355
133.7	-3919.37	-45.105
133.8	-3922.42	-45.105
133.9	-3937.68	-45.1355
134	-3956.6	-45.1965
134.1	-3983.15	-45.105
134.2	-3995.06	-45.0439
134.3	-3993.23	-45.105
134.4	-3984.38	-45.2271
134.5	-3957.52	-45.105
134.6	-3931.27	-45.0439
134.7	-3961.18	-45.105
134.8	-3990.78	-45.2271
134.9	-3988.95	-45.0745
135	-3978.58	-45.1355
135.1	-3977.97	-45.2576
135.2	-3979.49	-45.0745
135.3	-3964.23	-45.0745
135.4	-3964.23	-45.166
135.5	-3969.73	-45.1965
135.6	-3959.05	-45.1355
135.7	-3968.2	-45.0745
135.8	-3983.15	-45.105
135.9	-3978.88	-45.2271
136	-3972.78	-45.105
136.1	-3957.82	-45.105
136.2	-3968.2	-45.2576
136.3	-3972.17	-45.166
136.4	-3950.81	-45.1355
136.5	-3955.38	-45.2271
136.6	-3966.98	-45.1965
136.7	-3960.57	-45.105
136.8	-3970.64	-45.2271
136.9	-3987.73	-45.1355
137	-4005.13	-45.105
137.1	-4004.21	-45.2576
137.2	-3975.22	-45.0745
137.3	-3958.13	-45.105
137.4	-3956.91	-45.2881
137.5	-3961.49	-45.166
137.6	-3990.78	-45.105
137.7	-4003.3	-45.166
137.8	-4005.74	-45.2271
137.9	-4018.86	-45.2271
138	-4010.01	-45.166
138.1	-3990.17	-45.105
138.2	-3991.09	-45.105
138.3	-3985.9	-45.105
138.4	-3991.09	-45.2271
138.5	-3999.94	-45.1965
138.6	-3999.02	-45.105
138.7	-3998.11	-45.105
138.8	-3987.43	-45.1965
138.9	-3977.05	-45.105
139	-4001.46	-45.0745
139.1	-4041.14	-45.166
139.2	-4061.89	-45.1355
139.3	-4054.57	-45.105
139.4	-4037.17	-45.2271
139.5	-4029.54	-45.1355
139.6	-4022.52	-45.0439
139.7	-4021.61	-45.105
139.8	-4036.56	-45.166
139.9	-4037.48	-45.1965
140	-4029.85	-45.1355
140.1	-4024.35	-50.1099
140.2	-4092.41	-50.0488
140.3	-4300.84	-50.0793
140.4	-4386.6	-50.1099
140.5	-4383.85	-50.2014
140.6	-4376.53	-50.2014
140.7	-4360.05	-50.2014
140.8	-4345.09	-50.1709
140.9	-4327.39	-50.1099
141	-4325.87	-50.0793
141.1	-4338.38	-50.1404
141.2	-4341.43	-50.1709
141.3	-4333.5	-50.0793
141.4	-4318.85	-50.2014
141.5	-4280.09	-50.1099
141.6	-4268.8	-50.1709
141.7	-4291.99	-50.2014
141.8	-4298.1	-50.1404
141.9	-4297.18	-50.2014
142	-4318.85	-50.2014
142.1	-4345.09	-50.1404
142.2	-4345.7	-50.293
142.3	-4315.49	-50.1099
142.4	-4295.65	-50.1404
142.5	-4297.79	-50.2319
142.6	-4305.42	-50.1404
142.7	-4307.86	-50.2625
142.8	-4304.81	-50.1099
142.9	-4289.55	-50.1099
143	-4270.32	-50.293
143.1	-4252.62	-50.0793
143.2	-4230.04	-50.1709
143.3	-4243.77	-50.2014
143.4	-4227.91	-50.1099
143.5	-4211.73	-50.2319
143.6	-4217.53	-50.0793
143.7	-4225.16	-50.1709
143.8	-4254.15	-50.2014
143.9	-4281.92	-50.1099
144	-4279.17	-50.2014
144.1	-4266.97	-50.1709
144.2	-4282.53	-50.0793
144.3	-4288.33	-50.2319
144.4	-4277.65	-50.1099
144.5	-4268.8	-50.1404
144.6	-4244.69	-50.2014
144.7	-4227.91	-50.0488
144.8	-4232.18	-50.1709
144.9	-4237.06	-50.0793
145	-4232.18	-50.0793
145.1	-4226.38	-50.2014
145.2	-4227.29	-50.0488
145.3	-4231.26	-50.2319
145.4	-4235.53	-50.0793
145.5	-4248.05	-50.1099
145.6	-4268.8	-50.2014
145.7	-4270.63	-50.1099
145.8	-4280.4	-50.0793
145.9	-4278.87	-50.1099
146	-4281.01	-50.2319
146.1	-4275.51	-50.0793
146.2	-4258.42	-50.1099
146.3	-4274.29	-50.2014
146.4	-4283.14	-50.2014
146.5	-4267.88	-50.1404
146.6	-4263	-50.2319
146.7	-4273.99	-50.2625
146.8	-4287.41	-50.1404
146.9	-4273.38	-50.2319
147	-4236.45	-50.2014
147.1	-4241.33	-50.1709
147.2	-4246.22	-50.293
147.3	-4229.13	-50.0793
147.4	-4220.28	-50.2014
147.5	-4228.52	-50.0793
147.6	-4232.79	-50.2014
147.7	-4234.92	-50.0793
147.8	-4236.45	-50.2014
147.9	-4222.41	-50.0793
148	-4206.85	-50.2014
148.1	-4208.68	-50.0793
148.2	-4215.7	-50.2014
148.3	-4227.6	-50.1099
148.4	-4236.15	-50.1404
148.5	-4232.18	-50.2014
148.6	-4223.94	-50.0488
148.7	-4237.37	-50.1404
148.8	-4248.96	-50.1099
148.9	-4263.31	-50.1404
149	-4280.09	-50.1404
149.1	-4286.8	-50.0793
149.2	-4300.84	-50.2014
149.3	-4302.67	-50.1709
149.4	-4282.84	-50.0793
149.5	-4255.37	-50.1404
149.6	-4258.73	-50.2014
149.7	-4258.73	-50.0793
149.8	-4245	-50.2319
149.9	-4239.5	-50.1709
150	-4233.09	-50.1709
150.1	-4216	-55.2368
150.2	-4283.14	-55.1147
150.3	-4486.39	-55.1758
150.4	-4568.18	-55.2063
150.5	-4556.88	-55.1147
150.6	-4541.02	-55.2368
150.7	-4509.28	-55.2063
150.8	-4499.82	-55.0842
150.9	-4506.23	-55.0842
151	-4519.35	-55.2368
151.1	-4518.13	-55.0537
151.2	-4506.84	-55.0842
151.3	-4474.49	-55.2063
151.4	-4459.53	-55.0537
151.5	-4498.29	-55.2063
151.6	-4560.55	-55.0537
151.7	-4611.21	-55.1758
151.8	-4611.51	-55.1147
151.9	-4605.41	-55.0842
152	-4606.02	-55.2368
152.1	-4621.28	-55.0842
152.2	-4646.61	-55.2368
152.3	-4662.78	-55.0842
152.4	-4667.36	-55.2063
152.5	-4680.48	-55.2368
152.6	-4676.82	-55.1147
152.7	-4655.15	-55.1758
152.8	-4631.65	-55.2063
152.9	-4610.9	-55.1147
153	-4610.9	-55.1758
153.1	-4594.73	-55.0537
153.2	-4568.79	-55.2063
153.3	-4573.36	-55.0842
153.4	-4565.12	-55.1147
153.5	-4556.88	-55.0842
153.6	-4556.58	-55.1147
153.7	-4570.31	-55.0537
153.8	-4588.32	-55.0842
153.9	-4590.76	-55.2063
154	-4603.58	-55.0842
154.1	-4611.82	-55.1453
154.2	-4616.39	-55.2673
154.3	-4638.06	-55.1147
154.4	-4654.85	-55.2979
154.5	-4646.61	-55.1147
154.6	-4629.82	-55.1453
154.7	-4607.85	-55.1758
154.8	-4603.27	-55.1147
154.9	-4609.99	-55.2368
155	-4587.1	-55.0232
155.1	-4560.85	-55.1453
155.2	-4583.44	-55.1453
155.3	-4620.97	-55.0842
155.4	-4627.08	-55.2063
155.5	-4613.34	-55.0842
155.6	-4612.12	-55.2368
155.7	-4613.95	-55.0537
155.8	-4618.84	-55.2063
155.9	-4631.65	-55.1453
156	-4632.26	-55.1758
156.1	-4638.98	-55.0842
156.2	-4641.42	-55.1758
156.3	-4626.46	-55.1147
156.4	-4612.43	-55.2368
156.5	-4590.76	-55.1147
156.6	-4581.91	-55.2979
156.7	-4573.67	-55.0842
156.8	-4556.88	-55.1758
156.9	-4565.43	-55.2063
157	-4587.71	-55.1147
157.1	-4603.58	-55.2368
157.2	-4602.66	-55.0537
157.3	-4595.64	-55.1758
157.4	-4597.47	-55.1758
157.5	-4595.64	-55.0537
157.6	-4590.45	-55.2368
157.7	-4568.48	-55.0537
157.8	-4580.08	-55.1147
157.9	-4616.09	-55.1758
158	-4624.94	-55.0842
158.1	-4622.5	-55.2368
158.2	-4617.31	-55.0842
158.3	-4602.97	-55.2368
158.4	-4583.74	-55.1453
158.5	-4592.29	-55.2063
158.6	-4591.67	-55.2368
158.7	-4575.81	-55.1453
158.8	-4580.08	-55.2673
158.9	-4582.52	-55.0842
159	-4572.14	-55.1147
159.1	-4562.38	-55.1453
159.2	-4552.92	-55.0537
159.3	-4567.87	-55.1453
159.4	-4600.22	-55.2063
159.5	-4622.5	-55.1453
159.6	-4634.09	-55.0537
159.7	-4641.11	-55.1758
159.8	-4656.68	-55.1758
159.9	-4664.92	-55.0842
160	-4664.92	-55.2368
160.1	-4657.29	-60.0891
160.2	-4669.8	-60.2417
160.3	-4862.06	-60.1807
160.4	-5041.81	-60.1196
160.5	-5081.79	-60.2417
160.6	-5084.53	-60.0891
160.7	-5061.95	-60.2722
160.8	-5023.8	-60.1196
160.9	-5013.12	-60.2112
161	-5018.92	-60.0891
161.1	-5022.58	-60.2112
161.2	-5050.96	-60.0891
161.3	-5111.69	-60.1196
161.4	-5141.6	-60.1501
161.5	-5136.41	-60.0891
161.6	-5137.63	-60.0891
161.7	-5137.02	-60.1807
161.8	-5125.73	-60.0891
161.9	-5125.73	-60.1501
162	-5144.96	-60.1196
162.1	-5146.79	-60.0891
162.2	-5078.74	-60.2112
162.3	-5019.23	-60.1196
162.4	-5009.16	-60.1196
162.5	-5000	-60.2112
162.6	-5016.48	-60.0586
162.7	-4997.86	-60.1807
162.8	-4935.3	-60.0891
162.9	-4913.94	-60.1501
163	-4938.05	-60.0586
163.1	-4955.75	-60.2417
163.2	-4957.28	-60.1501
163.3	-4952.7	-60.1196
163.4	-4972.53	-60.2722
163.5	-4992.98	-60.1501
163.6	-5025.94	-60.1196
163.7	-5037.84	-60.2112
163.8	-5000.31	-60.1501
163.9	-4981.69	-60.1196
164	-4982.6	-60.2722
164.1	-5005.19	-60.1807
164.2	-5027.47	-60.1196
164.3	-5033.87	-60.1807
164.4	-5029.6	-60.1196
164.5	-5044.86	-60.1807
164.6	-5047.3	-60.2112
164.7	-5016.78	-60.0586
164.8	-4993.29	-60.1501
164.9	-4996.64	-60.1807
165	-4988.1	-60.0586
165.1	-4956.67	-60.0891
165.2	-4951.78	-60.2112
165.3	-4974.06	-60.2112
165.4	-4983.22	-60.0891
165.5	-4976.5	-60.0891
165.6	-4937.44	-60.1196
165.7	-4913.64	-60.2112
165.8	-4916.38	-60.1807
165.9	-4927.98	-60.0586
166	-4964.29	-60.1807
166.1	-4997.25	-60.2112
166.2	-5003.97	-60.1196
166.3	-4999.08	-60.1501
166.4	-4995.42	-60.2722
166.5	-4968.87	-60.0891
166.6	-4945.37	-60.1501
166.7	-4944.76	-60.1807
166.8	-4936.22	-60.1501
166.9	-4941.41	-60.2417
167	-4952.39	-60.0891
167.1	-4970.4	-60.2417
167.2	-5001.53	-60.1196
167.3	-5024.72	-60.0891
167.4	-5036.62	-60.2112
167.5	-5046.08	-60.1196
167.6	-5034.48	-60.0586
167.7	-5012.51	-60.2112
167.8	-5006.71	-60.0281
167.9	-4989.01	-60.1501
168	-4936.22	-60.2112
168.1	-4910.89	-60.1196
168.2	-4913.33	-60.0891
168.3	-4886.78	-60.2112
168.4	-4846.5	-60.0891
168.5	-4826.35	-60.1196
168.6	-4851.99	-60.2112
168.7	-4881.29	-60.1807
168.8	-4917.91	-60.0891
168.9	-4934.08	-60.1196
169	-4938.66	-60.2112
169.1	-4933.17	-60.2417
169.2	-4941.41	-60.1196
169.3	-4963.07	-60.1501
169.4	-4982.6	-60.1807
169.5	-4985.66	-60.1196
169.6	-4982.6	-60.1807
169.7	-4970.4	-60.0891
169.8	-4959.41	-60.2112
169.9	-4957.28	-60.0586
170	-4969.18	-60.2112
170.1	-4950.56	-65.0635
170.2	-4977.42	-65.1245
170.3	-5167.85	-65.0635
170.4	-5293.58	-65.155
170.5	-5326.84	-65.0024
170.6	-5339.36	-65.094
170.7	-5352.78	-65.1855
170.8	-5383	-65.0635
170.9	-5418.7	-65.0635
171	-5450.74	-65.1855
171.1	-5473.94	-65.0635
171.2	-5508.12	-65.1245
171.3	-5517.88	-65.0635
171.4	-5504.76	-65.1855
171.5	-5500.79	-65.0635
171.6	-5496.52	-65.1855
171.7	-5472.11	-65.094
171.8	-5472.72	-65.2161
171.9	-5505.07	-65.094
172	-5508.73	-65.2161
172.1	-5500.49	-65.0635
172.2	-5492.55	-65.2161
172.3	-5478.52	-65.155
172.4	-5467.83	-65.1245
172.5	-5448.61	-65.155
172.6	-5422.97	-65.1245
172.7	-5401.31	-65.094
172.8	-5396.73	-65.155
172.9	-5416.56	-65.0635
173	-5451.66	-65.0635
173.1	-5482.79	-65.155
173.2	-5470.89	-65.033
173.3	-5454.41	-65.0635
173.4	-5456.85	-65.155
173.5	-5461.73	-65.0635
173.6	-5459.59	-65.0635
173.7	-5475.77	-65.155
173.8	-5462.95	-65.1245
173.9	-5444.03	-65.0635
174	-5427.86	-65.094
174.1	-5429.38	-65.1855
174.2	-5457.76	-65.155
174.3	-5451.97	-65.033
174.4	-5445.86	-65.0635
174.5	-5422.06	-65.1855
174.6	-5367.13	-65.2161
174.7	-5334.47	-65.155
174.8	-5314.03	-65.0024
174.9	-5310.67	-65.033
175	-5314.64	-65.155
175.1	-5308.53	-65.033
175.2	-5302.43	-65.0635
175.3	-5317.38	-65.155
175.4	-5346.07	-65.094
175.5	-5360.72	-65.0024
175.6	-5383.91	-65.155
175.7	-5419.62	-65.1245
175.8	-5442.2	-65.033
175.9	-5431.21	-65.1245
176	-5407.71	-65.094
176.1	-5388.49	-65.0635
176.2	-5372.31	-65.1855
176.3	-5381.16	-65.0635
176.4	-5396.73	-65.1855
176.5	-5400.09	-65.2161
176.6	-5420.23	-65.094
176.7	-5441.59	-65.094
176.8	-5443.12	-65.2161
176.9	-5449.22	-65.1245
177	-5478.82	-65.094
177.1	-5505.37	-65.2161
177.2	-5525.21	-65.1855
177.3	-5512.39	-65.0635
177.4	-5484.92	-65.1855
177.5	-5473.94	-65.2466
177.6	-5469.97	-65.155
177.7	-5470.89	-65.094
177.8	-5477.6	-65.094
177.9	-5479.13	-65.1245
178	-5467.22	-65.2466
178.1	-5459.59	-65.1855
178.2	-5453.19	-65.094
178.3	-5458.37	-65.1245
178.4	-5459.59	-65.2161
178.5	-5479.43	-65.155
178.6	-5492.55	-65.0635
178.7	-5465.7	-65.155
178.8	-5444.34	-65.1245
178.9	-5444.34	-65.094
179	-5455.02	-65.2161
179.1	-5456.85	-65.0635
179.2	-5454.1	-65.1855
179.3	-5462.95	-65.1855
179.4	-5461.73	-65.0635
179.5	-5475.46	-65.094
179.6	-5511.78	-65.1855
179.7	-5521.55	-65.2161
179.8	-5480.96	-65.1855
179.9	-5413.51	-65.1245
180	-5386.35	-65.0635
180.1	-5390.63	-70.0989
180.2	-5466	-70.0684
180.3	-5709.53	-70.1904
180.4	-5873.41	-70.1599
180.5	-5906.07	-70.0378
180.6	-5925.29	-70.0684
180.7	-5984.5	-70.0989
180.8	-6033.33	-70.1294
180.9	-6002.81	-70.1904
181	-5935.06	-70.1294
181.1	-5912.48	-70.0073
181.2	-5941.47	-70.0684
181.3	-5948.49	-70.1294
181.4	-5951.84	-70.1294
181.5	-5953.06	-70.0684
181.6	-5929.26	-70.0684
181.7	-5907.59	-70.0989
181.8	-5910.95	-70.1599
181.9	-5925.9	-70.0989
182	-5902.4	-70.0378
182.1	-5878.3	-70.0989
182.2	-5894.47	-70.1904
182.3	-5919.49	-70.0989
182.4	-5937.19	-70.0073
182.5	-5937.19	-70.0378
182.6	-5929.26	-70.0989
182.7	-5932.01	-70.1904
182.8	-5925.6	-70.0989
182.9	-5936.58	-70.0378
183	-5943.3	-70.0073
183.1	-5938.11	-70.0684
183.2	-5928.96	-70.0684
183.3	-5926.21	-70.1294
183.4	-5936.28	-70.1294
183.5	-5914	-70.1599
183.6	-5881.65	-70.0989
183.7	-5876.77	-70.0378
183.8	-5860.29	-70.0684
183.9	-5814.21	-70.1904
184	-5809.63	-70.1294
184.1	-5823.97	-70.0073
184.2	-5812.38	-70.0684
184.3	-5812.38	-70.1904
184.4	-5823.97	-70.0378
184.5	-5834.66	-70.0684
184.6	-5837.1	-70.1599
184.7	-5833.13	-70.1294
184.8	-5826.11	-70.0684
184.9	-5824.58	-70.1904
185	-5815.12	-70.0378
185.1	-5801.7	-70.2209
185.2	-5826.42	-70.0989
185.3	-5842.9	-70.1294
185.4	-5840.45	-70.1904
185.5	-5845.95	-70.0684
185.6	-5826.72	-70.2209
185.7	-5804.14	-70.0684
185.8	-5798.95	-70.1599
185.9	-5830.99	-70.2209
186	-5885.93	-70.0989
186.1	-5920.41	-70.0989
186.2	-5920.41	-70.1904
186.3	-5899.05	-70.1599
186.4	-5902.4	-70.0684
186.5	-5888.98	-70.0989
186.6	-5889.59	-70.2209
186.7	-5893.55	-70.0378
186.8	-5891.11	-70.0989
186.9	-5899.05	-70.1904
187	-5896.61	-70.0989
187.1	-5903.63	-70.0989
187.2	-5931.09	-70.1599
187.3	-5935.36	-70.0989
187.4	-5922.24	-70.0378
187.5	-5921.02	-70.1904
187.6	-5917.36	-70.1294
187.7	-5920.1	-70.0378
187.8	-5924.68	-70.0989
187.9	-5941.16	-70.1599
188	-5953.98	-70.0378
188.1	-5918.27	-70.0989
188.2	-5888.67	-70.1904
188.3	-5901.18	-70.0073
188.4	-5910.95	-70.0378
188.5	-5896.61	-70.1599
188.6	-5897.22	-70.0989
188.7	-5912.48	-70.0684
188.8	-5912.78	-70.0989
188.9	-5883.79	-70.2209
189	-5841.37	-70.0684
189.1	-5847.47	-70.0378
189.2	-5860.29	-70.1904
189.3	-5829.47	-70.0684
189.4	-5796.2	-70.0378
189.5	-5796.2	-70.1904
189.6	-5816.65	-70.0378
189.7	-5839.84	-70.2209
189.8	-5868.84	-70.0989
189.9	-5874.94	-70.1294
190	-5838.93	-70.1294
190.1	-5814.21	-75.0732
190.2	-5851.44	-75.1343
190.3	-6081.24	-75.1343
190.4	-6255.49	-75.0427
190.5	-6264.95	-75.1648
190.6	-6255.49	-75.0732
190.7	-6260.99	-75.1038
190.8	-6253.66	-75.1038
190.9	-6257.32	-75.0427
191	-6307.68	-75.1648
191.1	-6337.28	-75.0427
191.2	-6324.16	-75.1343
191.3	-6332.09	-75.0122
191.4	-6334.53	-75.1953
191.5	-6339.42	-75.0122
191.6	-6337.59	-75.1648
191.7	-6286.01	-74.9817
191.8	-6232.6	-75.1038
191.9	-6201.48	-75.1038
192	-6207.89	-74.9817
192.1	-6237.49	-75.1343
192.2	-6236.57	-75.0427
192.3	-6220.4	-75.0122
192.4	-6233.52	-75.1343
192.5	-6245.42	-75.1038
192.6	-6247.86	-75.0732
192.7	-6245.73	-75.1648
192.8	-6233.52	-75.0732
192.9	-6239.62	-75.0427
193	-6238.1	-75.1953
193.1	-6214.9	-75.0732
193.2	-6204.83	-75.0732
193.3	-6211.55	-75.1953
193.4	-6264.95	-75.0427
193.5	-6343.69	-75.0732
193.6	-6344.6	-75.1953
193.7	-6289.37	-75.0122
193.8	-6259.46	-75.2258
193.9	-6257.63	-75.0427
194	-6245.73	-75.0427
194.1	-6245.12	-75.1648
194.2	-6245.42	-75.0122
194.3	-6248.47	-75.1648
194.4	-6228.03	-75.0122
194.5	-6220.4	-75.1343
194.6	-6256.41	-75.0122
194.7	-6272.58	-75.1648
194.8	-6257.32	-75.0427
194.9	-6241.46	-75.0427
195	-6238.71	-75.1343
195.1	-6240.84	-74.9817
195.2	-6265.26	-75.1648
195.3	-6293.03	-75.0427
195.4	-6311.04	-75.1343
195.5	-6318.66	-75.0122
195.6	-6306.76	-75.1038
195.7	-6273.19	-75.0732
195.8	-6232.3	-75.1953
195.9	-6207.28	-75.0732
196	-6254.27	-75.1038
196.1	-6304.63	-75.1953
196.2	-6293.95	-75.0427
196.3	-6276.86	-75.1953
196.4	-6289.06	-75.0732
196.5	-6297.61	-75.1343
196.6	-6293.64	-75.1038
196.7	-6292.11	-75.2258
196.8	-6272.28	-75.0427
196.9	-6246.95	-75.1038
197	-6233.52	-75.2258
197.1	-6230.47	-75.1648
197.2	-6249.39	-75.0732
197.3	-6246.95	-75.1648
197.4	-6228.94	-75.1648
197.5	-6259.77	-75.0427
197.6	-6295.78	-75.1038
197.7	-6272.89	-75.2258
197.8	-6246.64	-75.1343
197.9	-6231.69	-75.1038
198	-6230.16	-75.1038
198.1	-6251.53	-75.1953
198.2	-6263.12	-75.0427
198.3	-6253.36	-75.1343
198.4	-6262.51	-75.1648
198.5	-6276.25	-75.0427
198.6	-6264.34	-75.1038
198.7	-6241.76	-75.1648
198.8	-6209.41	-75.0732
198.9	-6175.54	-75.1953
199	-6176.45	-75.0732
199.1	-6199.04	-75.1038
199.2	-6220.09	-75.1648
199.3	-6236.88	-75.0427
199.4	-6238.71	-75.1648
199.5	-6228.03	-75.0427
199.6	-6241.15	-75.1343
199.7	-6244.2	-75.0427
199.8	-6236.88	-75.1343
199.9	-6219.79	-75.0732
200	-6201.78	-75.1038
200.1	-6168.21	-80.1697
200.2	-6211.24	-80.0476
200.3	-6426.09	-80.1697
200.4	-6598.51	-80.0781
200.5	-6614.38	-80.1697
200.6	-6614.07	-80.1392
200.7	-6624.15	-80.1086
200.8	-6652.83	-80.2002
200.9	-6708.37	-80.0781
201	-6734.01	-80.0476
201.1	-6739.81	-80.2002
201.2	-6756.9	-80.0476
201.3	-6752.62	-80.1697
201.4	-6698.3	-80.0781
201.5	-6692.5	-80.1392
201.6	-6717.53	-80.1086
201.7	-6726.68	-80.1086
201.8	-6732.48	-80.1392
201.9	-6736.15	-80.1086
202	-6739.5	-80.2002
202.1	-6739.81	-80.0476
202.2	-6725.77	-80.1086
202.3	-6695.25	-80.2002
202.4	-6683.65	-80.1086
202.5	-6672.67	-80.1086
202.6	-6661.38	-80.1697
202.7	-6675.11	-80.0781
202.8	-6699.83	-80.0781
202.9	-6730.35	-80.2002
203	-6730.96	-80.1086
203.1	-6703.49	-80.1086
203.2	-6726.99	-80.2307
203.3	-6747.44	-80.0781
203.4	-6738.59	-80.1697
203.5	-6705.02	-80.0476
203.6	-6675.42	-80.2002
203.7	-6645.81	-80.0781
203.8	-6601.56	-80.1086
203.9	-6598.51	-80.1697
204	-6656.19	-80.0476
204.1	-6701.97	-80.1697
204.2	-6697.69	-80.1086
204.3	-6698.91	-80.0476
204.4	-6725.16	-80.1697
204.5	-6721.8	-80.1697
204.6	-6701.05	-80.0781
204.7	-6699.52	-80.1697
204.8	-6692.2	-80.1086
204.9	-6716.61	-80.0476
205	-6755.07	-80.1697
205.1	-6753.54	-80.0781
205.2	-6730.04	-80.1392
205.3	-6695.25	-80.0781
205.4	-6679.08	-80.2002
205.5	-6692.81	-80.0476
205.6	-6691.28	-80.1697
205.7	-6654.97	-80.0476
205.8	-6627.5	-80.1392
205.9	-6635.44	-80.0476
206	-6697.69	-80.1697
206.1	-6748.05	-80.0476
206.2	-6728.21	-80.0781
206.3	-6708.07	-80.2002
206.4	-6714.48	-80.0476
206.5	-6716.61	-80.1392
206.6	-6684.88	-80.0781
206.7	-6647.95	-80.0781
206.8	-6633	-80.1086
206.9	-6603.09	-79.9866
207	-6555.79	-80.1697
207.1	-6560.67	-80.0476
207.2	-6624.15	-80.0171
207.3	-6675.11	-80.1392
207.4	-6642.46	-80.0171
207.5	-6614.07	-80.1086
207.6	-6614.07	-80.0781
207.7	-6615.6	-80.0476
207.8	-6615.3	-80.1086
207.9	-6629.33	-80.0171
208	-6622.92	-80.1392
208.1	-6580.2	-79.9866
208.2	-6569.21	-80.1392
208.3	-6589.36	-80.0476
208.4	-6604.92	-80.1086
208.5	-6593.32	-80.0476
208.6	-6596.07	-80.1392
208.7	-6617.13	-80.1086
208.8	-6644.59	-80.0171
208.9	-6687.01	-80.1086
209	-6703.19	-80.1392
209.1	-6694.03	-80.0171
209.2	-6654.97	-80.1392
209.3	-6649.48	-80.1086
209.4	-6685.79	-80.0476
209.5	-6669.01	-80.2002
209.6	-6620.18	-80.0171
209.7	-6608.28	-80.2002
